<?xml version="1.0" encoding="UTF-8"?>

<RequestGroup xmlns="http://hl7.org/fhir">
  <id value="example01-referralprescription-request-group"/>
  <meta>
    <profile value="https://www.ehealth.fgov.be/standards/fhir/StructureDefinition/be-referralprescription-request-group"/>
  </meta>
  <text>
    <status value="generated"/><div xmlns="http://www.w3.org/1999/xhtml"><p><b>Generated Narrative</b></p><div style="display: inline-block; background-color: #d9e0e7; padding: 6px; margin: 4px; border: 1px solid #8da1b4; border-radius: 5px; line-height: 60%"><p style="margin-bottom: 0px">Resource "example01-referralprescription-request-group" </p><p style="margin-bottom: 0px">Profile: <a href="StructureDefinition-be-referralprescription-request-group.html">BeReferralPrescriptionRequestGroup</a></p></div><p><b>identifier</b>: id: UHMEPVALUE</p><p><b>status</b>: active</p><p><b>intent</b>: order</p><p><b>subject</b>: <a name="Patient1"> </a></p><blockquote><div style="display: inline-block; background-color: #d9e0e7; padding: 6px; margin: 4px; border: 1px solid #8da1b4; border-radius: 5px; line-height: 60%"><p style="margin-bottom: 0px">Resource "Patient1" </p><p style="margin-bottom: 0px">Profile: <a href="https://build.fhir.org/ig/hl7-be/hl7-be-fhir//StructureDefinition-be-patient.html">BePatient</a></p></div><p><b>identifier</b>: id: 9999999999 (OFFICIAL)</p><p><b>name</b>: Jane Doe </p><p><b>telecom</b>: ph: 322672299(HOME)</p><p><b>gender</b>: female</p><p><b>birthDate</b>: 1956-05-27</p><p><b>address</b>: Labradorstraat 26, 1000 Brussel(HOME)</p></blockquote><blockquote><p><b>action</b></p><h3>RelatedActions</h3><table class="grid"><tr><td>-</td><td><b>ActionId</b></td><td><b>Relationship</b></td></tr><tr><td>*</td><td>care03</td><td>after-end</td></tr></table><p><b>resource</b>: <a name="example01-care01-referralprescription-nursing-bladder-care"> </a></p><blockquote><div style="display: inline-block; background-color: #d9e0e7; padding: 6px; margin: 4px; border: 1px solid #8da1b4; border-radius: 5px; line-height: 60%"><p style="margin-bottom: 0px">Resource "example01-care01-referralprescription-nursing-bladder-care" </p><p style="margin-bottom: 0px">Profiles: <a href="StructureDefinition-be-referralprescription-nursing.html">BeReferralPrescriptionNursing</a>, <a href="StructureDefinition-be-referralprescription-nursing-bladder-care.html">BeReferralPrescriptionNursingBladderCare</a></p></div><p><b>Reason for current status</b>: Created <span style="background: LightGoldenRodYellow; margin: 4px; border: 1px solid khaki"> (<a href="CodeSystem-be-status-reason.html">BeStatusReason</a>#created)</span></p><p><b>status</b>: active</p><p><b>intent</b>: order</p><p><b>category</b>: Nursing procedure <span style="background: LightGoldenRodYellow; margin: 4px; border: 1px solid khaki"> (<a href="https://browser.ihtsdotools.org/">SNOMED CT</a>#9632001)</span></p><p><b>priority</b>: routine</p><p><b>code</b>: Bladder care <span style="background: LightGoldenRodYellow; margin: 4px; border: 1px solid khaki"> (<a href="CodeSystem-be-cs-nursing-code.html">BeNursingCode</a>#bladder-care)</span></p><p><b>orderDetail</b>: Bladder probe in/out <span style="background: LightGoldenRodYellow; margin: 4px; border: 1px solid khaki"> (<a href="CodeSystem-codesystem-be-type-of-bladder-care.html">BeBladderCareType</a>#bladder-probe-in-out)</span></p><p><b>subject</b>: <a href="#Patient1">#Patient1</a></p><p><b>occurrence</b>: Do Once per 1 days</p><p><b>requester</b>: <a href="#Requester1">#Requester1</a></p><p><b>performerType</b>: Nurse <span style="background: LightGoldenRodYellow; margin: 4px; border: 1px solid khaki"> (<a href="https://browser.ihtsdotools.org/">SNOMED CT</a>#106292003)</span></p><p><b>performer</b>: <a href="#Performer1">#Performer1</a></p></blockquote></blockquote><blockquote><p><b>action</b></p><h3>RelatedActions</h3><table class="grid"><tr><td>-</td><td><b>ActionId</b></td><td><b>Relationship</b></td></tr><tr><td>*</td><td>care03</td><td>after-end</td></tr></table><p><b>resource</b>: <a name="example01-care02-colon-cleansing"> </a></p><blockquote><div style="display: inline-block; background-color: #d9e0e7; padding: 6px; margin: 4px; border: 1px solid #8da1b4; border-radius: 5px; line-height: 60%"><p style="margin-bottom: 0px">Resource "example01-care02-colon-cleansing" </p><p style="margin-bottom: 0px">Profiles: <a href="StructureDefinition-be-referralprescription-nursing.html">BeReferralPrescriptionNursing</a>, <a href="StructureDefinition-be-referralprescription-nursing-digestive-system-care.html">BeReferralPrescriptionNursingDigestiveSystemCare</a></p></div><p><b>Reason for current status</b>: Created <span style="background: LightGoldenRodYellow; margin: 4px; border: 1px solid khaki"> (<a href="CodeSystem-be-status-reason.html">BeStatusReason</a>#created)</span></p><p><b>status</b>: active</p><p><b>intent</b>: order</p><p><b>category</b>: Nursing procedure <span style="background: LightGoldenRodYellow; margin: 4px; border: 1px solid khaki"> (<a href="https://browser.ihtsdotools.org/">SNOMED CT</a>#9632001)</span></p><p><b>priority</b>: routine</p><p><b>code</b>: Digestive system care <span style="background: LightGoldenRodYellow; margin: 4px; border: 1px solid khaki"> (<a href="CodeSystem-be-cs-nursing-code.html">BeNursingCode</a>#digestive-system-care)</span></p><p><b>orderDetail</b>: colonic-cleansing <span style="background: LightGoldenRodYellow; margin: 4px; border: 1px solid khaki"> (<a href="CodeSystem-codesystem-be-digestive-system-care.html">BeDigestiveSystemCare</a>#colonic-cleansing)</span></p><p><b>subject</b>: <a href="#Patient1">#Patient1</a></p><p><b>occurrence</b>: Do Once per 1 days</p><p><b>requester</b>: <a href="#Requester1">#Requester1</a></p><p><b>performerType</b>: Nurse <span style="background: LightGoldenRodYellow; margin: 4px; border: 1px solid khaki"> (<a href="https://browser.ihtsdotools.org/">SNOMED CT</a>#106292003)</span></p><p><b>performer</b>: <a href="#Performer1">#Performer1</a></p></blockquote></blockquote><blockquote><p><b>action</b></p><p><b>resource</b>: <a name="example01-care03-referralprescription-nursing-medication"> </a></p><blockquote><div style="display: inline-block; background-color: #d9e0e7; padding: 6px; margin: 4px; border: 1px solid #8da1b4; border-radius: 5px; line-height: 60%"><p style="margin-bottom: 0px">Resource "example01-care03-referralprescription-nursing-medication" </p><p style="margin-bottom: 0px">Profile: <a href="StructureDefinition-be-referralprescription-nursing-medication.html">BeReferralPrescriptionNursingMedication</a></p></div><p><b>identifier</b>: id: UHMEPVALUE</p><p><b>status</b>: active</p><p><b>statusReason</b>: Created <span style="background: LightGoldenRodYellow; margin: 4px; border: 1px solid khaki"> (<a href="CodeSystem-be-status-reason.html">BeStatusReason</a>#created)</span></p><p><b>intent</b>: order</p><p><b>category</b>: Subcutaan <span style="background: LightGoldenRodYellow; margin: 4px; border: 1px solid khaki"> (<a href="CodeSystem-be-nursing-medication-injection.html">BeNursingMedicationInjection</a>#SC)</span></p><p><b>priority</b>: routine</p><p><b>medication</b>: Midazolam Mylan inj./inf./instill. oploss. i.m./i.v./rect. [amp.] 10 x 5 mg / 5 ml <span style="background: LightGoldenRodYellow; margin: 4px; border: 1px solid khaki"> (cnk-codes#2661098)</span></p><p><b>subject</b>: <a href="#Patient1">#Patient1</a></p><p><b>requester</b>: <a href="#Requester1">#Requester1</a></p><p><b>performer</b>: <a href="#Performer1">#Performer1</a></p><p><b>performerType</b>: Nurse <span style="background: LightGoldenRodYellow; margin: 4px; border: 1px solid khaki"> (<a href="https://browser.ihtsdotools.org/">SNOMED CT</a>#106292003)</span></p></blockquote></blockquote></div>
  </text>
  <contained>
    <Patient>
      <id value="Patient1"/>
      <meta>
        <profile value="https://www.ehealth.fgov.be/standards/fhir/StructureDefinition/be-patient"/>
      </meta>
      <identifier>
        <use value="official"/>
        <system value="https://www.ehealth.fgov.be/standards/fhir/NamingSystem/ssin"/>
        <value value="9999999999"/>
      </identifier>
      <name>
        <family value="Doe"/>
        <given value="Jane"/>
      </name>
      <telecom>
        <system value="phone"/>
        <value value="322672299"/>
        <use value="home"/>
      </telecom>
      <gender value="female"/>
      <birthDate value="1956-05-27"/>
      <address>
        <use value="home"/>
        <type value="both"/>
        <text value="Labradorstraat 26, 1000 Brussel"/>
        <line value="Labradorstraat 26"/>
        <city value="Brussel"/>
        <postalCode value="1000"/>
        <country value="BE"/>
      </address>
    </Patient>
  </contained>
  <contained>
    <Practitioner>
      <id value="Requester1"/>
      <meta>
        <profile value="https://www.ehealth.fgov.be/standards/fhir/StructureDefinition/be-practitioner"/>
      </meta>
      <identifier>
        <use value="official"/>
        <system value="https://www.ehealth.fgov.be/standards/fhir/NamingSystem/nihdi"/>
        <value value="8888888888"/>
      </identifier>
      <name>
        <use value="official"/>
        <family value="Seven"/>
        <given value="Henry"/>
      </name>
      <telecom>
        <system value="phone"/>
        <value value="322882299"/>
        <use value="home"/>
      </telecom>
      <address>
        <use value="work"/>
        <type value="both"/>
        <text value="Werkstraat 26, 1000 Brussel"/>
        <line value="Werkstraat 26"/>
        <city value="Brussel"/>
        <postalCode value="1000"/>
        <country value="BE"/>
      </address>
    </Practitioner>
  </contained>
  <contained>
    <Organization>
      <id value="Performer1"/>
      <meta>
        <profile value="https://www.ehealth.fgov.be/standards/fhir/StructureDefinition/be-organization"/>
      </meta>
      <identifier>
        <use value="official"/>
        <system value="https://www.ehealth.fgov.be/standards/fhir/NamingSystem/nihdi"/>
        <value value="9876543210"/>
      </identifier>
      <name value="Labstraatlabo"/>
      <telecom>
        <system value="phone"/>
        <value value="322884499"/>
        <use value="work"/>
      </telecom>
      <address>
        <use value="work"/>
        <type value="both"/>
        <text value="Labstraat 101, 1000 Brussel"/>
        <line value="Labstraat 101"/>
        <city value="Brussel"/>
        <postalCode value="1000"/>
        <country value="BE"/>
      </address>
    </Organization>
  </contained>
  <contained>
    <ServiceRequest>
      <id value="example01-care01-referralprescription-nursing-bladder-care"/>
      <meta>
        <profile value="https://www.ehealth.fgov.be/standards/fhir/StructureDefinition/be-referralprescription-nursing"/>
        <profile value="https://www.ehealth.fgov.be/standards/fhir/StructureDefinition/be-referralprescription-nursing-bladder-care"/>
      </meta>
      <extension url="http://hl7.org/fhir/StructureDefinition/request-statusReason">
        <valueCodeableConcept>
          <coding>
            <system value="https://www.ehealth.fgov.be/standards/fhir/CodeSystem/be-status-reason"/>
            <code value="created"/>
            <display value="Created"/>
          </coding>
        </valueCodeableConcept>
      </extension>
      <status value="active"/>
      <intent value="order"/>
      <category>
        <coding>
          <system value="http://snomed.info/sct"/>
          <code value="9632001"/>
        </coding>
        <text value="Nursing procedure"/>
      </category>
      <priority value="routine"/>
      <code>
        <coding>
          <system value="https://www.ehealth.fgov.be/standards/fhir/CodeSystem/be-cs-nursing-code"/>
          <code value="bladder-care"/>
        </coding>
      </code>
      <orderDetail>
        <coding>
          <system value="https://www.ehealth.fgov.be/standards/fhir/CodeSystem/be-cs-type-of-bladder-care"/>
          <code value="bladder-probe-in-out"/>
        </coding>
      </orderDetail>
      <subject>
        <reference value="#Patient1"/>
      </subject>
      <occurrenceTiming>
        <repeat>
          <frequency value="1"/>
          <period value="1"/>
          <periodUnit value="d"/>
        </repeat>
      </occurrenceTiming>
      <requester>
        <reference value="#Requester1"/>
      </requester>
      <performerType>
        <coding>
          <system value="http://snomed.info/sct"/>
          <code value="106292003"/>
          <display value="Nurse"/>
        </coding>
      </performerType>
      <performer>
        <reference value="#Performer1"/>
      </performer>
    </ServiceRequest>
  </contained>
  <contained>
    <ServiceRequest>
      <id value="example01-care02-colon-cleansing"/>
      <meta>
        <profile value="https://www.ehealth.fgov.be/standards/fhir/StructureDefinition/be-referralprescription-nursing"/>
        <profile value="https://www.ehealth.fgov.be/standards/fhir/StructureDefinition/be-referralprescription-nursing-digestive-system-care"/>
      </meta>
      <extension url="http://hl7.org/fhir/StructureDefinition/request-statusReason">
        <valueCodeableConcept>
          <coding>
            <system value="https://www.ehealth.fgov.be/standards/fhir/CodeSystem/be-status-reason"/>
            <code value="created"/>
            <display value="Created"/>
          </coding>
        </valueCodeableConcept>
      </extension>
      <status value="active"/>
      <intent value="order"/>
      <category>
        <coding>
          <system value="http://snomed.info/sct"/>
          <code value="9632001"/>
        </coding>
        <text value="Nursing procedure"/>
      </category>
      <priority value="routine"/>
      <code>
        <coding>
          <system value="https://www.ehealth.fgov.be/standards/fhir/CodeSystem/be-cs-nursing-code"/>
          <code value="digestive-system-care"/>
        </coding>
      </code>
      <orderDetail>
        <coding>
          <system value="https://www.ehealth.fgov.be/standards/fhir/CodeSystem/be-cs-digestive-system-care"/>
          <code value="colonic-cleansing"/>
        </coding>
      </orderDetail>
      <subject>
        <reference value="#Patient1"/>
      </subject>
      <occurrenceTiming>
        <repeat>
          <frequency value="1"/>
          <period value="1"/>
          <periodUnit value="d"/>
        </repeat>
      </occurrenceTiming>
      <requester>
        <reference value="#Requester1"/>
      </requester>
      <performerType>
        <coding>
          <system value="http://snomed.info/sct"/>
          <code value="106292003"/>
          <display value="Nurse"/>
        </coding>
      </performerType>
      <performer>
        <reference value="#Performer1"/>
      </performer>
    </ServiceRequest>
  </contained>
  <contained>
    <MedicationRequest>
      <id value="example01-care03-referralprescription-nursing-medication"/>
      <meta>
        <profile value="https://www.ehealth.fgov.be/standards/fhir/StructureDefinition/be-referralprescription-nursing-medication"/>
      </meta>
      <identifier>
        <system value="https://www.ehealth.fgov.be/standards/fhir/NamingSystem/uhmep"/>
        <value value="UHMEPVALUE"/>
      </identifier>
      <status value="active"/>
      <statusReason>
        <coding>
          <system value="https://www.ehealth.fgov.be/standards/fhir/CodeSystem/be-status-reason"/>
          <code value="created"/>
          <display value="Created"/>
        </coding>
      </statusReason>
      <intent value="order"/>
      <category>
        <coding>
          <system value="https://www.ehealth.fgov.be/standards/fhir/CodeSystem/be-nursing-medication-injection"/>
          <code value="SC"/>
        </coding>
        <text value="Subcutaan"/>
      </category>
      <priority value="routine"/>
      <medicationCodeableConcept>
        <coding>
          <system value="https://www.ehealth.fgov.be/standards/fhir/NamingSystem/cnk-codes"/>
          <code value="2661098"/>
          <display value="Midazolam Mylan inj./inf./instill. oploss. i.m./i.v./rect. [amp.] 10 x 5 mg / 5 ml"/>
        </coding>
      </medicationCodeableConcept>
      <subject>
        <reference value="#Patient1"/>
      </subject>
      <requester>
        <reference value="#Requester1"/>
      </requester>
      <performer>
        <reference value="#Performer1"/>
      </performer>
      <performerType>
        <coding>
          <system value="http://snomed.info/sct"/>
          <code value="106292003"/>
          <display value="Nurse"/>
        </coding>
      </performerType>
      <dosageInstruction>
        <text value="opzet hier: éénmalige sondage en lavement uitvoeren, maar persoon op voorhand verdoven met 5mg Midzaolan via subcutane inspuiting"/>
        <timing>
          <repeat>
            <frequency value="1"/>
            <period value="1"/>
            <periodUnit value="d"/>
          </repeat>
        </timing>
      </dosageInstruction>
    </MedicationRequest>
  </contained>
  <identifier>
    <system value="https://www.ehealth.fgov.be/standards/fhir/NamingSystem/uhmep"/>
    <value value="UHMEPVALUE"/>
  </identifier>
  <status value="active"/>
  <intent value="order"/>
  <subject>
    <reference value="#Patient1"/>
  </subject>
  <action id="care01">
    <relatedAction>
      <actionId value="care03"/>
      <relationship value="after-end"/>
    </relatedAction>
    <resource>
      <reference value="#example01-care01-referralprescription-nursing-bladder-care"/>
    </resource>
  </action>
  <action id="care02">
    <relatedAction>
      <actionId value="care03"/>
      <relationship value="after-end"/>
    </relatedAction>
    <resource>
      <reference value="#example01-care02-colon-cleansing"/>
    </resource>
  </action>
  <action id="care03">
    <resource>
      <reference value="#example01-care03-referralprescription-nursing-medication"/>
    </resource>
  </action>
</RequestGroup>