{
  "resourceType": "RequestGroup",
  "id": "example01-referralprescription-request-group-gen",
  "meta": {
    "profile": [
      "https://www.ehealth.fgov.be/standards/fhir/StructureDefinition/be-referralprescription-request-group"
    ]
  },
  "text": {
    "status": "generated",
    "div": "<div xmlns=\"http://www.w3.org/1999/xhtml\"><p><b>Generated Narrative</b></p><div style=\"display: inline-block; background-color: #d9e0e7; padding: 6px; margin: 4px; border: 1px solid #8da1b4; border-radius: 5px; line-height: 60%\"><p style=\"margin-bottom: 0px\">Resource \"example01-referralprescription-request-group-gen\" </p><p style=\"margin-bottom: 0px\">Profile: <a href=\"StructureDefinition-be-referralprescription-request-group.html\">BeReferralPrescriptionRequestGroup</a></p></div><p><b>identifier</b>: id: UHMEPVALUE</p><p><b>status</b>: active</p><p><b>intent</b>: order</p><p><b>subject</b>: <a name=\"Patient1\"> </a></p><blockquote><div style=\"display: inline-block; background-color: #d9e0e7; padding: 6px; margin: 4px; border: 1px solid #8da1b4; border-radius: 5px; line-height: 60%\"><p style=\"margin-bottom: 0px\">Resource \"Patient1\" </p><p style=\"margin-bottom: 0px\">Profile: <a href=\"https://build.fhir.org/ig/hl7-be/hl7-be-fhir//StructureDefinition-be-patient.html\">BePatient</a></p></div><p><b>identifier</b>: id: 9999999999 (OFFICIAL)</p><p><b>name</b>: Jane Doe </p><p><b>telecom</b>: ph: 322672299(HOME)</p><p><b>gender</b>: female</p><p><b>birthDate</b>: 1956-05-27</p><p><b>address</b>: Labradorstraat 26, 1000 Brussel(HOME)</p></blockquote><blockquote><p><b>action</b></p><h3>RelatedActions</h3><table class=\"grid\"><tr><td>-</td><td><b>ActionId</b></td><td><b>Relationship</b></td></tr><tr><td>*</td><td>care03</td><td>after-end</td></tr></table><p><b>resource</b>: <a name=\"example01-care01-referralprescription-nursing-bladder-care-gen\"> </a></p><blockquote><div style=\"display: inline-block; background-color: #d9e0e7; padding: 6px; margin: 4px; border: 1px solid #8da1b4; border-radius: 5px; line-height: 60%\"><p style=\"margin-bottom: 0px\">Resource \"example01-care01-referralprescription-nursing-bladder-care-gen\" </p><p style=\"margin-bottom: 0px\">Profiles: <a href=\"StructureDefinition-be-referralprescription-nursing.html\">BeReferralPrescriptionNursing</a>, <a href=\"StructureDefinition-be-referralprescription-nursing-gen-other.html\">BeReferralPrescriptionNursingGenOther</a></p></div><p><b>Reason for current status</b>: Created <span style=\"background: LightGoldenRodYellow; margin: 4px; border: 1px solid khaki\"> (<a href=\"CodeSystem-be-status-reason.html\">BeStatusReason</a>#created)</span></p><p><b>status</b>: active</p><p><b>intent</b>: order</p><p><b>category</b>: Nursing procedure <span style=\"background: LightGoldenRodYellow; margin: 4px; border: 1px solid khaki\"> (<a href=\"https://browser.ihtsdotools.org/\">SNOMED CT</a>#9632001)</span></p><p><b>priority</b>: routine</p><p><b>code</b>: Other <span style=\"background: LightGoldenRodYellow; margin: 4px; border: 1px solid khaki\"> (<a href=\"CodeSystem-be-cs-nursing-code.html\">BeNursingCode</a>#other)</span></p><p><b>orderDetail</b>: Replacement of indwelling catheter of urinary bladder (procedure) <span style=\"background: LightGoldenRodYellow; margin: 4px; border: 1px solid khaki\"> (<a href=\"https://browser.ihtsdotools.org/\">SNOMED CT</a>#447379005)</span></p><p><b>subject</b>: <a href=\"#Patient1\">#Patient1</a></p><p><b>occurrence</b>: Do Once per 1 days</p><p><b>requester</b>: <a href=\"#Requester1\">#Requester1</a></p><p><b>performerType</b>: Nurse <span style=\"background: LightGoldenRodYellow; margin: 4px; border: 1px solid khaki\"> (<a href=\"https://browser.ihtsdotools.org/\">SNOMED CT</a>#106292003)</span></p><p><b>performer</b>: <a href=\"#Performer1\">#Performer1</a></p></blockquote></blockquote><blockquote><p><b>action</b></p><h3>RelatedActions</h3><table class=\"grid\"><tr><td>-</td><td><b>ActionId</b></td><td><b>Relationship</b></td></tr><tr><td>*</td><td>care03</td><td>after-end</td></tr></table><p><b>resource</b>: <a name=\"example01-care02-colon-cleansing-gen\"> </a></p><blockquote><div style=\"display: inline-block; background-color: #d9e0e7; padding: 6px; margin: 4px; border: 1px solid #8da1b4; border-radius: 5px; line-height: 60%\"><p style=\"margin-bottom: 0px\">Resource \"example01-care02-colon-cleansing-gen\" </p><p style=\"margin-bottom: 0px\">Profiles: <a href=\"StructureDefinition-be-referralprescription-nursing.html\">BeReferralPrescriptionNursing</a>, <a href=\"StructureDefinition-be-referralprescription-nursing-gen-other.html\">BeReferralPrescriptionNursingGenOther</a></p></div><p><b>Reason for current status</b>: Created <span style=\"background: LightGoldenRodYellow; margin: 4px; border: 1px solid khaki\"> (<a href=\"CodeSystem-be-status-reason.html\">BeStatusReason</a>#created)</span></p><p><b>status</b>: active</p><p><b>intent</b>: order</p><p><b>category</b>: Nursing procedure <span style=\"background: LightGoldenRodYellow; margin: 4px; border: 1px solid khaki\"> (<a href=\"https://browser.ihtsdotools.org/\">SNOMED CT</a>#9632001)</span></p><p><b>priority</b>: routine</p><p><b>code</b>: Other <span style=\"background: LightGoldenRodYellow; margin: 4px; border: 1px solid khaki\"> (<a href=\"CodeSystem-be-cs-nursing-code.html\">BeNursingCode</a>#other)</span></p><p><b>orderDetail</b>: Irrigation of colon <span style=\"background: LightGoldenRodYellow; margin: 4px; border: 1px solid khaki\"> (<a href=\"https://browser.ihtsdotools.org/\">SNOMED CT</a>#174228003)</span></p><p><b>subject</b>: <a href=\"#Patient1\">#Patient1</a></p><p><b>occurrence</b>: Do Once per 1 days</p><p><b>requester</b>: <a href=\"#Requester1\">#Requester1</a></p><p><b>performerType</b>: Nurse <span style=\"background: LightGoldenRodYellow; margin: 4px; border: 1px solid khaki\"> (<a href=\"https://browser.ihtsdotools.org/\">SNOMED CT</a>#106292003)</span></p><p><b>performer</b>: <a href=\"#Performer1\">#Performer1</a></p></blockquote></blockquote><blockquote><p><b>action</b></p><p><b>resource</b>: <a name=\"example01-care03-referralprescription-nursing-medication-gen\"> </a></p><blockquote><div style=\"display: inline-block; background-color: #d9e0e7; padding: 6px; margin: 4px; border: 1px solid #8da1b4; border-radius: 5px; line-height: 60%\"><p style=\"margin-bottom: 0px\">Resource \"example01-care03-referralprescription-nursing-medication-gen\" </p><p style=\"margin-bottom: 0px\">Profile: <a href=\"StructureDefinition-be-referralprescription-nursing-gen-medication.html\">BeReferralPrescriptionNursingGenMedication</a></p></div><p><b>identifier</b>: id: UHMEPVALUE</p><p><b>status</b>: active</p><p><b>statusReason</b>: Created <span style=\"background: LightGoldenRodYellow; margin: 4px; border: 1px solid khaki\"> (<a href=\"CodeSystem-be-status-reason.html\">BeStatusReason</a>#created)</span></p><p><b>intent</b>: order</p><p><b>category</b>: Subcutaneous injection <span style=\"background: LightGoldenRodYellow; margin: 4px; border: 1px solid khaki\"> (<a href=\"https://browser.ihtsdotools.org/\">SNOMED CT</a>#32282008)</span></p><p><b>priority</b>: routine</p><p><b>medication</b>: Midazolam Mylan inj./inf./instill. oploss. i.m./i.v./rect. [amp.] 10 x 5 mg / 5 ml <span style=\"background: LightGoldenRodYellow; margin: 4px; border: 1px solid khaki\"> (cnk-codes#2661098)</span></p><p><b>subject</b>: <a href=\"#Patient1\">#Patient1</a></p><p><b>requester</b>: <a href=\"#Requester1\">#Requester1</a></p><p><b>performer</b>: <a href=\"#Performer1\">#Performer1</a></p><p><b>performerType</b>: Nurse <span style=\"background: LightGoldenRodYellow; margin: 4px; border: 1px solid khaki\"> (<a href=\"https://browser.ihtsdotools.org/\">SNOMED CT</a>#106292003)</span></p></blockquote></blockquote></div>"
  },
  "contained": [
    {
      "resourceType": "Patient",
      "id": "Patient1",
      "meta": {
        "profile": [
          "https://www.ehealth.fgov.be/standards/fhir/StructureDefinition/be-patient"
        ]
      },
      "identifier": [
        {
          "use": "official",
          "system": "https://www.ehealth.fgov.be/standards/fhir/NamingSystem/ssin",
          "value": "9999999999"
        }
      ],
      "name": [
        {
          "family": "Doe",
          "given": [
            "Jane"
          ]
        }
      ],
      "telecom": [
        {
          "system": "phone",
          "value": "322672299",
          "use": "home"
        }
      ],
      "gender": "female",
      "birthDate": "1956-05-27",
      "address": [
        {
          "use": "home",
          "type": "both",
          "text": "Labradorstraat 26, 1000 Brussel",
          "line": [
            "Labradorstraat 26"
          ],
          "city": "Brussel",
          "postalCode": "1000",
          "country": "BE"
        }
      ]
    },
    {
      "resourceType": "Practitioner",
      "id": "Requester1",
      "meta": {
        "profile": [
          "https://www.ehealth.fgov.be/standards/fhir/StructureDefinition/be-practitioner"
        ]
      },
      "identifier": [
        {
          "use": "official",
          "system": "https://www.ehealth.fgov.be/standards/fhir/NamingSystem/nihdi",
          "value": "8888888888"
        }
      ],
      "name": [
        {
          "use": "official",
          "family": "Seven",
          "given": [
            "Henry"
          ]
        }
      ],
      "telecom": [
        {
          "system": "phone",
          "value": "322882299",
          "use": "home"
        }
      ],
      "address": [
        {
          "use": "work",
          "type": "both",
          "text": "Werkstraat 26, 1000 Brussel",
          "line": [
            "Werkstraat 26"
          ],
          "city": "Brussel",
          "postalCode": "1000",
          "country": "BE"
        }
      ]
    },
    {
      "resourceType": "Organization",
      "id": "Performer1",
      "meta": {
        "profile": [
          "https://www.ehealth.fgov.be/standards/fhir/StructureDefinition/be-organization"
        ]
      },
      "identifier": [
        {
          "use": "official",
          "system": "https://www.ehealth.fgov.be/standards/fhir/NamingSystem/nihdi",
          "value": "9876543210"
        }
      ],
      "name": "Labstraatlabo",
      "telecom": [
        {
          "system": "phone",
          "value": "322884499",
          "use": "work"
        }
      ],
      "address": [
        {
          "use": "work",
          "type": "both",
          "text": "Labstraat 101, 1000 Brussel",
          "line": [
            "Labstraat 101"
          ],
          "city": "Brussel",
          "postalCode": "1000",
          "country": "BE"
        }
      ]
    },
    {
      "resourceType": "ServiceRequest",
      "id": "example01-care01-referralprescription-nursing-bladder-care-gen",
      "meta": {
        "profile": [
          "https://www.ehealth.fgov.be/standards/fhir/StructureDefinition/be-referralprescription-nursing",
          "https://www.ehealth.fgov.be/standards/fhir/StructureDefinition/be-referralprescription-nursing-gen-other"
        ]
      },
      "extension": [
        {
          "url": "http://hl7.org/fhir/StructureDefinition/request-statusReason",
          "valueCodeableConcept": {
            "coding": [
              {
                "system": "https://www.ehealth.fgov.be/standards/fhir/CodeSystem/be-status-reason",
                "code": "created",
                "display": "Created"
              }
            ]
          }
        }
      ],
      "status": "active",
      "intent": "order",
      "category": [
        {
          "coding": [
            {
              "system": "http://snomed.info/sct",
              "code": "9632001"
            }
          ],
          "text": "Nursing procedure"
        }
      ],
      "priority": "routine",
      "code": {
        "coding": [
          {
            "system": "https://www.ehealth.fgov.be/standards/fhir/CodeSystem/be-cs-nursing-code",
            "code": "other"
          }
        ]
      },
      "orderDetail": [
        {
          "coding": [
            {
              "system": "http://snomed.info/sct",
              "code": "447379005"
            }
          ]
        }
      ],
      "subject": {
        "reference": "#Patient1"
      },
      "occurrenceTiming": {
        "repeat": {
          "frequency": 1,
          "period": 1,
          "periodUnit": "d"
        }
      },
      "requester": {
        "reference": "#Requester1"
      },
      "performerType": {
        "coding": [
          {
            "system": "http://snomed.info/sct",
            "code": "106292003",
            "display": "Nurse"
          }
        ]
      },
      "performer": [
        {
          "reference": "#Performer1"
        }
      ]
    },
    {
      "resourceType": "ServiceRequest",
      "id": "example01-care02-colon-cleansing-gen",
      "meta": {
        "profile": [
          "https://www.ehealth.fgov.be/standards/fhir/StructureDefinition/be-referralprescription-nursing",
          "https://www.ehealth.fgov.be/standards/fhir/StructureDefinition/be-referralprescription-nursing-gen-other"
        ]
      },
      "extension": [
        {
          "url": "http://hl7.org/fhir/StructureDefinition/request-statusReason",
          "valueCodeableConcept": {
            "coding": [
              {
                "system": "https://www.ehealth.fgov.be/standards/fhir/CodeSystem/be-status-reason",
                "code": "created",
                "display": "Created"
              }
            ]
          }
        }
      ],
      "status": "active",
      "intent": "order",
      "category": [
        {
          "coding": [
            {
              "system": "http://snomed.info/sct",
              "code": "9632001"
            }
          ],
          "text": "Nursing procedure"
        }
      ],
      "priority": "routine",
      "code": {
        "coding": [
          {
            "system": "https://www.ehealth.fgov.be/standards/fhir/CodeSystem/be-cs-nursing-code",
            "code": "other"
          }
        ]
      },
      "orderDetail": [
        {
          "coding": [
            {
              "system": "http://snomed.info/sct",
              "code": "174228003"
            }
          ]
        }
      ],
      "subject": {
        "reference": "#Patient1"
      },
      "occurrenceTiming": {
        "repeat": {
          "frequency": 1,
          "period": 1,
          "periodUnit": "d"
        }
      },
      "requester": {
        "reference": "#Requester1"
      },
      "performerType": {
        "coding": [
          {
            "system": "http://snomed.info/sct",
            "code": "106292003",
            "display": "Nurse"
          }
        ]
      },
      "performer": [
        {
          "reference": "#Performer1"
        }
      ]
    },
    {
      "resourceType": "MedicationRequest",
      "id": "example01-care03-referralprescription-nursing-medication-gen",
      "meta": {
        "profile": [
          "https://www.ehealth.fgov.be/standards/fhir/StructureDefinition/be-referralprescription-nursing-gen-medication"
        ]
      },
      "identifier": [
        {
          "system": "https://www.ehealth.fgov.be/standards/fhir/NamingSystem/uhmep",
          "value": "UHMEPVALUE"
        }
      ],
      "status": "active",
      "statusReason": {
        "coding": [
          {
            "system": "https://www.ehealth.fgov.be/standards/fhir/CodeSystem/be-status-reason",
            "code": "created",
            "display": "Created"
          }
        ]
      },
      "intent": "order",
      "category": [
        {
          "coding": [
            {
              "system": "http://snomed.info/sct",
              "code": "32282008"
            }
          ]
        }
      ],
      "priority": "routine",
      "medicationCodeableConcept": {
        "coding": [
          {
            "system": "https://www.ehealth.fgov.be/standards/fhir/NamingSystem/cnk-codes",
            "code": "2661098",
            "display": "Midazolam Mylan inj./inf./instill. oploss. i.m./i.v./rect. [amp.] 10 x 5 mg / 5 ml"
          }
        ]
      },
      "subject": {
        "reference": "#Patient1"
      },
      "requester": {
        "reference": "#Requester1"
      },
      "performer": {
        "reference": "#Performer1"
      },
      "performerType": {
        "coding": [
          {
            "system": "http://snomed.info/sct",
            "code": "106292003",
            "display": "Nurse"
          }
        ]
      },
      "dosageInstruction": [
        {
          "text": "opzet hier: éénmalige sondage en lavement uitvoeren, maar persoon op voorhand verdoven met 5mg Midzaolan via subcutane inspuiting",
          "timing": {
            "repeat": {
              "frequency": 1,
              "period": 1,
              "periodUnit": "d"
            }
          }
        }
      ]
    }
  ],
  "identifier": [
    {
      "system": "https://www.ehealth.fgov.be/standards/fhir/NamingSystem/uhmep",
      "value": "UHMEPVALUE"
    }
  ],
  "status": "active",
  "intent": "order",
  "subject": {
    "reference": "#Patient1"
  },
  "action": [
    {
      "id": "care01",
      "relatedAction": [
        {
          "actionId": "care03",
          "relationship": "after-end"
        }
      ],
      "resource": {
        "reference": "#example01-care01-referralprescription-nursing-bladder-care-gen"
      }
    },
    {
      "id": "care02",
      "relatedAction": [
        {
          "actionId": "care03",
          "relationship": "after-end"
        }
      ],
      "resource": {
        "reference": "#example01-care02-colon-cleansing-gen"
      }
    },
    {
      "id": "care03",
      "resource": {
        "reference": "#example01-care03-referralprescription-nursing-medication-gen"
      }
    }
  ]
}