{
  "resourceType" : "RequestGroup",
  "id" : "example01-referralprescription-request-group",
  "meta" : {
    "profile" : ["https://www.ehealth.fgov.be/standards/fhir/referral/StructureDefinition/be-referralprescription-request-group"]
  },
  "text" : {
    "status" : "generated",
    "div" : "<div xmlns=\"http://www.w3.org/1999/xhtml\"><p><b>Generated Narrative: RequestGroup</b><a name=\"example01-referralprescription-request-group\"> </a></p><div style=\"display: inline-block; background-color: #d9e0e7; padding: 6px; margin: 4px; border: 1px solid #8da1b4; border-radius: 5px; line-height: 60%\"><p style=\"margin-bottom: 0px\">Resource RequestGroup &quot;example01-referralprescription-request-group&quot; </p><p style=\"margin-bottom: 0px\">Profile: <a href=\"StructureDefinition-be-referralprescription-request-group.html\">BeReferralPrescriptionRequestGroup</a></p></div><p><b>identifier</b>: id: UHMEPVALUE</p><p><b>status</b>: active</p><p><b>intent</b>: order</p><p><b>subject</b>: <a name=\"patient1\"> </a></p><blockquote><p/><p><a name=\"patient1\"> </a></p><p><b>identifier</b>: id: 9999999999 (use: OFFICIAL)</p><p><b>name</b>: Jane Doe </p><p><b>gender</b>: female</p><p><b>birthDate</b>: 1956-05-27</p></blockquote><blockquote><p><b>action</b></p><h3>RelatedActions</h3><table class=\"grid\"><tr><td>-</td><td><b>ActionId</b></td><td><b>Relationship</b></td></tr><tr><td>*</td><td>care03</td><td>after-end</td></tr></table><p><b>resource</b>: <a name=\"example01-care01-referralprescription-nursing-bladder-care\"> </a></p><blockquote><p/><p><a name=\"example01-care01-referralprescription-nursing-bladder-care\"> </a></p><p><b>Reason for current status</b>: Other <span style=\"background: LightGoldenRodYellow; margin: 4px; border: 1px solid khaki\"> (<a href=\"CodeSystem-be-status-reason.html\">BeStatusReason</a>#other)</span></p><p><b>BeValidityPeriod</b>: 2020-01-01 --&gt; 2021-01-01</p><blockquote><p><b>BeIntendedPerformer</b></p><p><b>value</b>: Nurse <span style=\"background: LightGoldenRodYellow; margin: 4px; border: 1px solid khaki\"> (<a href=\"https://browser.ihtsdotools.org/\">SNOMED CT</a>#106292003)</span></p><p><b>value</b>: <a href=\"#Performer1\">#Performer1</a></p></blockquote><p><b>status</b>: active</p><p><b>intent</b>: order</p><p><b>category</b>: Nursing procedure <span style=\"background: LightGoldenRodYellow; margin: 4px; border: 1px solid khaki\"> (<a href=\"https://browser.ihtsdotools.org/\">SNOMED CT</a>#9632001)</span></p><p><b>priority</b>: routine</p><p><b>code</b>: Bladder care <span style=\"background: LightGoldenRodYellow; margin: 4px; border: 1px solid khaki\"> (<a href=\"CodeSystem-be-cs-nursing-code.html\">BeNursingCode</a>#bladder-care)</span></p><p><b>orderDetail</b>: Bladder probe in/out <span style=\"background: LightGoldenRodYellow; margin: 4px; border: 1px solid khaki\"> (<a href=\"CodeSystem-be-cs-type-of-bladder-care.html\">BeBladderCareType</a>#bladder-probe-in-out)</span></p><p><b>subject</b>: <a href=\"#patient1\">#patient1</a></p><p><b>occurrence</b>: Once per 1 days</p><p><b>authoredOn</b>: 2020-01-01</p><p><b>requester</b>: <a href=\"#Requester1\">#Requester1</a></p><p><b>reasonCode</b>: reason <span style=\"background: LightGoldenRodYellow; margin: 4px; border: 1px solid khaki\"> ()</span></p></blockquote></blockquote><blockquote><p><b>action</b></p><h3>RelatedActions</h3><table class=\"grid\"><tr><td>-</td><td><b>ActionId</b></td><td><b>Relationship</b></td></tr><tr><td>*</td><td>care03</td><td>after-end</td></tr></table><p><b>resource</b>: <a name=\"example01-care02-colon-cleansing\"> </a></p><blockquote><p/><p><a name=\"example01-care02-colon-cleansing\"> </a></p><p><b>Reason for current status</b>: Other <span style=\"background: LightGoldenRodYellow; margin: 4px; border: 1px solid khaki\"> (<a href=\"CodeSystem-be-status-reason.html\">BeStatusReason</a>#other)</span></p><p><b>BeValidityPeriod</b>: 2020-01-01 --&gt; 2021-01-01</p><blockquote><p><b>BeIntendedPerformer</b></p><p><b>value</b>: Nurse <span style=\"background: LightGoldenRodYellow; margin: 4px; border: 1px solid khaki\"> (<a href=\"https://browser.ihtsdotools.org/\">SNOMED CT</a>#106292003)</span></p><p><b>value</b>: <a href=\"#Performer1\">#Performer1</a></p></blockquote><p><b>status</b>: active</p><p><b>intent</b>: order</p><p><b>category</b>: Nursing procedure <span style=\"background: LightGoldenRodYellow; margin: 4px; border: 1px solid khaki\"> (<a href=\"https://browser.ihtsdotools.org/\">SNOMED CT</a>#9632001)</span></p><p><b>priority</b>: routine</p><p><b>code</b>: Digestive system care <span style=\"background: LightGoldenRodYellow; margin: 4px; border: 1px solid khaki\"> (<a href=\"CodeSystem-be-cs-nursing-code.html\">BeNursingCode</a>#digestive-system-care)</span></p><p><b>orderDetail</b>: colonic-cleansing <span style=\"background: LightGoldenRodYellow; margin: 4px; border: 1px solid khaki\"> (<a href=\"CodeSystem-be-cs-digestive-system-care.html\">BeDigestiveSystemCare</a>#colonic-cleansing)</span></p><p><b>subject</b>: <a href=\"#patient1\">#patient1</a></p><p><b>occurrence</b>: Once per 1 days</p><p><b>authoredOn</b>: 2020-01-01</p><p><b>requester</b>: <a href=\"#Requester1\">#Requester1</a></p><p><b>reasonCode</b>: reason <span style=\"background: LightGoldenRodYellow; margin: 4px; border: 1px solid khaki\"> ()</span></p></blockquote></blockquote><blockquote><p><b>action</b></p><p><b>resource</b>: <a name=\"example01-care03-referralprescription-nursing-medication\"> </a></p><blockquote><p/><p><a name=\"example01-care03-referralprescription-nursing-medication\"> </a></p><blockquote><p><b>BeIntendedPerformer</b></p><p><b>value</b>: Nurse <span style=\"background: LightGoldenRodYellow; margin: 4px; border: 1px solid khaki\"> (<a href=\"https://browser.ihtsdotools.org/\">SNOMED CT</a>#106292003)</span></p><p><b>value</b>: <a href=\"#Performer1\">#Performer1</a></p></blockquote><p><b>status</b>: active</p><p><b>statusReason</b>: Other <span style=\"background: LightGoldenRodYellow; margin: 4px; border: 1px solid khaki\"> (<a href=\"CodeSystem-be-status-reason.html\">BeStatusReason</a>#other)</span></p><p><b>intent</b>: order</p><p><b>category</b>: Subcutaan <span style=\"background: LightGoldenRodYellow; margin: 4px; border: 1px solid khaki\"> (<a href=\"CodeSystem-be-nursing-medication-injection.html\">BeNursingMedicationInjection</a>#SC)</span></p><p><b>priority</b>: routine</p><p><b>medication</b>: Midazolam Mylan inj./inf./instill. oploss. i.m./i.v./rect. [amp.] 10 x 5 mg / 5 ml <span style=\"background: LightGoldenRodYellow; margin: 4px; border: 1px solid khaki\"> (be-ns-cnk-codes#2661098)</span></p><p><b>subject</b>: <a href=\"#patient1\">#patient1</a></p><p><b>requester</b>: <a href=\"#Requester1\">#Requester1</a></p><h3>DosageInstructions</h3><table class=\"grid\"><tr><td>-</td><td><b>Text</b></td><td><b>Timing</b></td></tr><tr><td>*</td><td>opzet hier: éénmalige sondage en lavement uitvoeren, maar persoon op voorhand verdoven met 5mg Midzaolan via subcutane inspuiting</td><td>Once per 1 days</td></tr></table></blockquote></blockquote><hr/><blockquote><p style=\"border: 1px #661aff solid; background-color: #e6e6ff; padding: 10px;\"><b>Jane Doe </b> female, DoB: 1956-05-27 ( id: 9999999999 (use: OFFICIAL))</p><hr/></blockquote><hr/><blockquote><p><b>Generated Narrative: Practitioner #Requester1</b><a name=\"Requester1\"> </a></p><p><b>identifier</b>: id: 8888888888 (use: OFFICIAL)</p><p><b>name</b>: Leonard McCoy (OFFICIAL), Bones (NICKNAME)</p></blockquote><hr/><blockquote><p><b>Generated Narrative: Practitioner #Performer1</b><a name=\"Performer1\"> </a></p><p><b>identifier</b>: id: 9876543210 (use: OFFICIAL)</p><p><b>name</b>: Hermans Lisa (OFFICIAL)</p></blockquote><hr/><blockquote><p><b>Generated Narrative: ServiceRequest #example01-care01-referralprescription-nursing-bladder-care</b><a name=\"example01-care01-referralprescription-nursing-bladder-care\"> </a></p><p><b>Reason for current status</b>: Other <span style=\"background: LightGoldenRodYellow; margin: 4px; border: 1px solid khaki\"> (<a href=\"CodeSystem-be-status-reason.html\">BeStatusReason</a>#other)</span></p><p><b>BeValidityPeriod</b>: 2020-01-01 --&gt; 2021-01-01</p><blockquote><p><b>BeIntendedPerformer</b></p><p><b>value</b>: Nurse <span style=\"background: LightGoldenRodYellow; margin: 4px; border: 1px solid khaki\"> (<a href=\"https://browser.ihtsdotools.org/\">SNOMED CT</a>#106292003)</span></p><p><b>value</b>: <a href=\"#Performer1\">#Performer1</a></p></blockquote><p><b>status</b>: active</p><p><b>intent</b>: order</p><p><b>category</b>: Nursing procedure <span style=\"background: LightGoldenRodYellow; margin: 4px; border: 1px solid khaki\"> (<a href=\"https://browser.ihtsdotools.org/\">SNOMED CT</a>#9632001)</span></p><p><b>priority</b>: routine</p><p><b>code</b>: Bladder care <span style=\"background: LightGoldenRodYellow; margin: 4px; border: 1px solid khaki\"> (<a href=\"CodeSystem-be-cs-nursing-code.html\">BeNursingCode</a>#bladder-care)</span></p><p><b>orderDetail</b>: Bladder probe in/out <span style=\"background: LightGoldenRodYellow; margin: 4px; border: 1px solid khaki\"> (<a href=\"CodeSystem-be-cs-type-of-bladder-care.html\">BeBladderCareType</a>#bladder-probe-in-out)</span></p><p><b>subject</b>: <a href=\"#patient1\">#patient1</a></p><p><b>occurrence</b>: Once per 1 days</p><p><b>authoredOn</b>: 2020-01-01</p><p><b>requester</b>: <a href=\"#Requester1\">#Requester1</a></p><p><b>reasonCode</b>: reason <span style=\"background: LightGoldenRodYellow; margin: 4px; border: 1px solid khaki\"> ()</span></p></blockquote><hr/><blockquote><p><b>Generated Narrative: ServiceRequest #example01-care02-colon-cleansing</b><a name=\"example01-care02-colon-cleansing\"> </a></p><p><b>Reason for current status</b>: Other <span style=\"background: LightGoldenRodYellow; margin: 4px; border: 1px solid khaki\"> (<a href=\"CodeSystem-be-status-reason.html\">BeStatusReason</a>#other)</span></p><p><b>BeValidityPeriod</b>: 2020-01-01 --&gt; 2021-01-01</p><blockquote><p><b>BeIntendedPerformer</b></p><p><b>value</b>: Nurse <span style=\"background: LightGoldenRodYellow; margin: 4px; border: 1px solid khaki\"> (<a href=\"https://browser.ihtsdotools.org/\">SNOMED CT</a>#106292003)</span></p><p><b>value</b>: <a href=\"#Performer1\">#Performer1</a></p></blockquote><p><b>status</b>: active</p><p><b>intent</b>: order</p><p><b>category</b>: Nursing procedure <span style=\"background: LightGoldenRodYellow; margin: 4px; border: 1px solid khaki\"> (<a href=\"https://browser.ihtsdotools.org/\">SNOMED CT</a>#9632001)</span></p><p><b>priority</b>: routine</p><p><b>code</b>: Digestive system care <span style=\"background: LightGoldenRodYellow; margin: 4px; border: 1px solid khaki\"> (<a href=\"CodeSystem-be-cs-nursing-code.html\">BeNursingCode</a>#digestive-system-care)</span></p><p><b>orderDetail</b>: colonic-cleansing <span style=\"background: LightGoldenRodYellow; margin: 4px; border: 1px solid khaki\"> (<a href=\"CodeSystem-be-cs-digestive-system-care.html\">BeDigestiveSystemCare</a>#colonic-cleansing)</span></p><p><b>subject</b>: <a href=\"#patient1\">#patient1</a></p><p><b>occurrence</b>: Once per 1 days</p><p><b>authoredOn</b>: 2020-01-01</p><p><b>requester</b>: <a href=\"#Requester1\">#Requester1</a></p><p><b>reasonCode</b>: reason <span style=\"background: LightGoldenRodYellow; margin: 4px; border: 1px solid khaki\"> ()</span></p></blockquote><hr/><blockquote><p><b>Generated Narrative: MedicationRequest #example01-care03-referralprescription-nursing-medication</b><a name=\"example01-care03-referralprescription-nursing-medication\"> </a></p><blockquote><p><b>BeIntendedPerformer</b></p><p><b>value</b>: Nurse <span style=\"background: LightGoldenRodYellow; margin: 4px; border: 1px solid khaki\"> (<a href=\"https://browser.ihtsdotools.org/\">SNOMED CT</a>#106292003)</span></p><p><b>value</b>: <a href=\"#Performer1\">#Performer1</a></p></blockquote><p><b>status</b>: active</p><p><b>statusReason</b>: Other <span style=\"background: LightGoldenRodYellow; margin: 4px; border: 1px solid khaki\"> (<a href=\"CodeSystem-be-status-reason.html\">BeStatusReason</a>#other)</span></p><p><b>intent</b>: order</p><p><b>category</b>: Subcutaan <span style=\"background: LightGoldenRodYellow; margin: 4px; border: 1px solid khaki\"> (<a href=\"CodeSystem-be-nursing-medication-injection.html\">BeNursingMedicationInjection</a>#SC)</span></p><p><b>priority</b>: routine</p><p><b>medication</b>: Midazolam Mylan inj./inf./instill. oploss. i.m./i.v./rect. [amp.] 10 x 5 mg / 5 ml <span style=\"background: LightGoldenRodYellow; margin: 4px; border: 1px solid khaki\"> (be-ns-cnk-codes#2661098)</span></p><p><b>subject</b>: <a href=\"#patient1\">#patient1</a></p><p><b>requester</b>: <a href=\"#Requester1\">#Requester1</a></p><h3>DosageInstructions</h3><table class=\"grid\"><tr><td>-</td><td><b>Text</b></td><td><b>Timing</b></td></tr><tr><td>*</td><td>opzet hier: éénmalige sondage en lavement uitvoeren, maar persoon op voorhand verdoven met 5mg Midzaolan via subcutane inspuiting</td><td>Once per 1 days</td></tr></table></blockquote></div>"
  },
  "contained" : [{
    "resourceType" : "Patient",
    "id" : "patient1",
    "meta" : {
      "profile" : ["https://www.ehealth.fgov.be/standards/fhir/core/StructureDefinition/be-patient"]
    },
    "identifier" : [{
      "use" : "official",
      "system" : "https://www.ehealth.fgov.be/standards/fhir/core/NamingSystem/ssin",
      "value" : "9999999999"
    }],
    "name" : [{
      "family" : "Doe",
      "given" : ["Jane"]
    }],
    "gender" : "female",
    "birthDate" : "1956-05-27"
  },
  {
    "resourceType" : "Practitioner",
    "id" : "Requester1",
    "meta" : {
      "profile" : ["https://www.ehealth.fgov.be/standards/fhir/core/StructureDefinition/be-practitioner"]
    },
    "identifier" : [{
      "use" : "official",
      "system" : "https://www.ehealth.fgov.be/standards/fhir/core/NamingSystem/nihdi",
      "value" : "8888888888"
    }],
    "name" : [{
      "use" : "official",
      "family" : "McCoy",
      "given" : ["Leonard"]
    },
    {
      "use" : "nickname",
      "given" : ["Bones"]
    }]
  },
  {
    "resourceType" : "Practitioner",
    "id" : "Performer1",
    "meta" : {
      "profile" : ["https://www.ehealth.fgov.be/standards/fhir/core/StructureDefinition/be-practitioner"]
    },
    "identifier" : [{
      "use" : "official",
      "system" : "https://www.ehealth.fgov.be/standards/fhir/core/NamingSystem/nihdi",
      "value" : "9876543210"
    }],
    "name" : [{
      "use" : "official",
      "family" : "Lisa",
      "given" : ["Hermans"]
    }]
  },
  {
    "resourceType" : "ServiceRequest",
    "id" : "example01-care01-referralprescription-nursing-bladder-care",
    "meta" : {
      "profile" : ["https://www.ehealth.fgov.be/standards/fhir/referral/StructureDefinition/be-referralprescription-nursing",
      "https://www.ehealth.fgov.be/standards/fhir/referral/StructureDefinition/be-referralprescription-nursing-bladder-care"]
    },
    "extension" : [{
      "url" : "http://hl7.org/fhir/StructureDefinition/request-statusReason",
      "valueCodeableConcept" : {
        "coding" : [{
          "system" : "https://www.ehealth.fgov.be/standards/fhir/referral/CodeSystem/be-status-reason",
          "code" : "other",
          "display" : "Other"
        }]
      }
    },
    {
      "url" : "https://www.ehealth.fgov.be/standards/fhir/referral/StructureDefinition/be-ext-validity-period",
      "valuePeriod" : {
        "start" : "2020-01-01",
        "end" : "2021-01-01"
      }
    },
    {
      "extension" : [{
        "url" : "role",
        "valueCodeableConcept" : {
          "coding" : [{
            "system" : "http://snomed.info/sct",
            "code" : "106292003",
            "display" : "Nurse"
          }]
        }
      },
      {
        "url" : "actor",
        "valueReference" : {
          "reference" : "#Performer1"
        }
      }],
      "url" : "https://www.ehealth.fgov.be/standards/fhir/referral/StructureDefinition/be-intended-performer"
    }],
    "status" : "active",
    "intent" : "order",
    "category" : [{
      "coding" : [{
        "system" : "http://snomed.info/sct",
        "code" : "9632001"
      }],
      "text" : "Nursing procedure"
    }],
    "priority" : "routine",
    "code" : {
      "coding" : [{
        "system" : "https://www.ehealth.fgov.be/standards/fhir/referral/CodeSystem/be-cs-nursing-code",
        "code" : "bladder-care"
      }]
    },
    "orderDetail" : [{
      "coding" : [{
        "system" : "https://www.ehealth.fgov.be/standards/fhir/referral/CodeSystem/be-cs-type-of-bladder-care",
        "code" : "bladder-probe-in-out"
      }]
    }],
    "subject" : {
      "reference" : "#patient1"
    },
    "occurrenceTiming" : {
      "repeat" : {
        "frequency" : 1,
        "period" : 1,
        "periodUnit" : "d"
      }
    },
    "authoredOn" : "2020-01-01",
    "requester" : {
      "reference" : "#Requester1"
    },
    "reasonCode" : [{
      "text" : "reason"
    }]
  },
  {
    "resourceType" : "ServiceRequest",
    "id" : "example01-care02-colon-cleansing",
    "meta" : {
      "profile" : ["https://www.ehealth.fgov.be/standards/fhir/referral/StructureDefinition/be-referralprescription-nursing",
      "https://www.ehealth.fgov.be/standards/fhir/referral/StructureDefinition/be-referralprescription-nursing-digestive-system-care"]
    },
    "extension" : [{
      "url" : "http://hl7.org/fhir/StructureDefinition/request-statusReason",
      "valueCodeableConcept" : {
        "coding" : [{
          "system" : "https://www.ehealth.fgov.be/standards/fhir/referral/CodeSystem/be-status-reason",
          "code" : "other",
          "display" : "Other"
        }]
      }
    },
    {
      "url" : "https://www.ehealth.fgov.be/standards/fhir/referral/StructureDefinition/be-ext-validity-period",
      "valuePeriod" : {
        "start" : "2020-01-01",
        "end" : "2021-01-01"
      }
    },
    {
      "extension" : [{
        "url" : "role",
        "valueCodeableConcept" : {
          "coding" : [{
            "system" : "http://snomed.info/sct",
            "code" : "106292003",
            "display" : "Nurse"
          }]
        }
      },
      {
        "url" : "actor",
        "valueReference" : {
          "reference" : "#Performer1"
        }
      }],
      "url" : "https://www.ehealth.fgov.be/standards/fhir/referral/StructureDefinition/be-intended-performer"
    }],
    "status" : "active",
    "intent" : "order",
    "category" : [{
      "coding" : [{
        "system" : "http://snomed.info/sct",
        "code" : "9632001"
      }],
      "text" : "Nursing procedure"
    }],
    "priority" : "routine",
    "code" : {
      "coding" : [{
        "system" : "https://www.ehealth.fgov.be/standards/fhir/referral/CodeSystem/be-cs-nursing-code",
        "code" : "digestive-system-care"
      }]
    },
    "orderDetail" : [{
      "coding" : [{
        "system" : "https://www.ehealth.fgov.be/standards/fhir/referral/CodeSystem/be-cs-digestive-system-care",
        "code" : "colonic-cleansing"
      }]
    }],
    "subject" : {
      "reference" : "#patient1"
    },
    "occurrenceTiming" : {
      "repeat" : {
        "frequency" : 1,
        "period" : 1,
        "periodUnit" : "d"
      }
    },
    "authoredOn" : "2020-01-01",
    "requester" : {
      "reference" : "#Requester1"
    },
    "reasonCode" : [{
      "text" : "reason"
    }]
  },
  {
    "resourceType" : "MedicationRequest",
    "id" : "example01-care03-referralprescription-nursing-medication",
    "meta" : {
      "profile" : ["https://www.ehealth.fgov.be/standards/fhir/referral/StructureDefinition/be-referralprescription-nursing-gen-medication"]
    },
    "extension" : [{
      "extension" : [{
        "url" : "role",
        "valueCodeableConcept" : {
          "coding" : [{
            "system" : "http://snomed.info/sct",
            "code" : "106292003",
            "display" : "Nurse"
          }]
        }
      },
      {
        "url" : "actor",
        "valueReference" : {
          "reference" : "#Performer1"
        }
      }],
      "url" : "https://www.ehealth.fgov.be/standards/fhir/referral/StructureDefinition/be-intended-performer"
    }],
    "status" : "active",
    "statusReason" : {
      "coding" : [{
        "system" : "https://www.ehealth.fgov.be/standards/fhir/referral/CodeSystem/be-status-reason",
        "code" : "other",
        "display" : "Other"
      }]
    },
    "intent" : "order",
    "category" : [{
      "coding" : [{
        "system" : "https://www.ehealth.fgov.be/standards/fhir/referral/CodeSystem/be-nursing-medication-injection",
        "code" : "SC"
      }],
      "text" : "Subcutaan"
    }],
    "priority" : "routine",
    "medicationCodeableConcept" : {
      "coding" : [{
        "system" : "https://www.ehealth.fgov.be/standards/fhir/medication/NamingSystem/be-ns-cnk-codes",
        "code" : "2661098",
        "display" : "Midazolam Mylan inj./inf./instill. oploss. i.m./i.v./rect. [amp.] 10 x 5 mg / 5 ml"
      }]
    },
    "subject" : {
      "reference" : "#patient1"
    },
    "requester" : {
      "reference" : "#Requester1"
    },
    "dosageInstruction" : [{
      "text" : "opzet hier: éénmalige sondage en lavement uitvoeren, maar persoon op voorhand verdoven met 5mg Midzaolan via subcutane inspuiting",
      "timing" : {
        "repeat" : {
          "frequency" : 1,
          "period" : 1,
          "periodUnit" : "d"
        }
      }
    }]
  }],
  "identifier" : [{
    "system" : "https://www.ehealth.fgov.be/standards/fhir/referral/NamingSystem/uhmep",
    "value" : "UHMEPVALUE"
  }],
  "status" : "active",
  "intent" : "order",
  "subject" : {
    "reference" : "#patient1"
  },
  "action" : [{
    "id" : "care01",
    "relatedAction" : [{
      "actionId" : "care03",
      "relationship" : "after-end"
    }],
    "resource" : {
      "reference" : "#example01-care01-referralprescription-nursing-bladder-care"
    }
  },
  {
    "id" : "care02",
    "relatedAction" : [{
      "actionId" : "care03",
      "relationship" : "after-end"
    }],
    "resource" : {
      "reference" : "#example01-care02-colon-cleansing"
    }
  },
  {
    "id" : "care03",
    "resource" : {
      "reference" : "#example01-care03-referralprescription-nursing-medication"
    }
  }]
}