{
  "resourceType": "RequestGroup",
  "id": "example01-referralprescription-request-group",
  "meta": {
    "profile": [
      "https://www.ehealth.fgov.be/standards/fhir/StructureDefinition/be-referralprescription-request-group"
    ]
  },
  "text": {
    "status": "generated",
    "div": "<div xmlns=\"http://www.w3.org/1999/xhtml\"><p><b>Generated Narrative</b></p><p><b>identifier</b>: id: UHMEPVALUE</p><p><b>status</b>: active</p><p><b>intent</b>: order</p><p><b>subject</b>: <a name=\"Patient1\"> </a></p><blockquote><p><b>identifier</b>: id: 9999999999 (OFFICIAL)</p><p><b>name</b>: Jane Doe </p><p><b>telecom</b>: ph: 322672299(HOME)</p><p><b>gender</b>: female</p><p><b>birthDate</b>: 1956-05-27</p><p><b>address</b>: Labradorstraat 26, 1000 Brussel(HOME)</p></blockquote><blockquote><p><b>action</b></p><h3>RelatedActions</h3><table class=\"grid\"><tr><td>-</td><td><b>ActionId</b></td><td><b>Relationship</b></td></tr><tr><td>*</td><td>care03</td><td>after-end</td></tr></table><p><b>resource</b>: <a name=\"example01-care01-referralprescription-nursing-bladder-care\"> </a></p><blockquote><p><b>Reason for current status</b>: <span title=\"Codes: {https://www.ehealth.fgov.be/standards/fhir/CodeSystem/be-status-reason created}\">Created</span></p><p><b>status</b>: active</p><p><b>intent</b>: order</p><p><b>category</b>: <span title=\"Codes: {http://snomed.info/sct 9632001}\">Nursing procedure</span></p><p><b>priority</b>: routine</p><p><b>code</b>: <span title=\"Codes: {https://www.ehealth.fgov.be/standards/fhir/CodeSystem/be-cs-nursing-code bladder-care}\">Bladder care</span></p><p><b>orderDetail</b>: <span title=\"Codes: {https://www.ehealth.fgov.be/standards/fhir/CodeSystem/be-cs-type-of-bladder-care bladder-probe-in-out}\">Bladder probe in/out</span></p><p><b>subject</b>: <a href=\"#Patient1\">#Patient1</a></p><p><b>occurrence</b>: Do Once per 1 days</p><p><b>requester</b>: <a href=\"#Requester1\">#Requester1</a></p><p><b>performerType</b>: <span title=\"Codes: {http://snomed.info/sct 106292003}\">Nurse</span></p><p><b>performer</b>: <a href=\"#Performer1\">#Performer1</a></p></blockquote></blockquote><blockquote><p><b>action</b></p><h3>RelatedActions</h3><table class=\"grid\"><tr><td>-</td><td><b>ActionId</b></td><td><b>Relationship</b></td></tr><tr><td>*</td><td>care03</td><td>after-end</td></tr></table><p><b>resource</b>: <a name=\"example01-care02-colon-cleansing\"> </a></p><blockquote><p><b>Reason for current status</b>: <span title=\"Codes: {https://www.ehealth.fgov.be/standards/fhir/CodeSystem/be-status-reason created}\">Created</span></p><p><b>status</b>: active</p><p><b>intent</b>: order</p><p><b>category</b>: <span title=\"Codes: {http://snomed.info/sct 9632001}\">Nursing procedure</span></p><p><b>priority</b>: routine</p><p><b>code</b>: <span title=\"Codes: {https://www.ehealth.fgov.be/standards/fhir/CodeSystem/be-cs-nursing-code digestive-system-care}\">Digestive system care</span></p><p><b>orderDetail</b>: <span title=\"Codes: {https://www.ehealth.fgov.be/standards/fhir/CodeSystem/be-cs-digestive-system-care colonic-cleansing}\">colonic-cleansing</span></p><p><b>subject</b>: <a href=\"#Patient1\">#Patient1</a></p><p><b>occurrence</b>: Do Once per 1 days</p><p><b>requester</b>: <a href=\"#Requester1\">#Requester1</a></p><p><b>performerType</b>: <span title=\"Codes: {http://snomed.info/sct 106292003}\">Nurse</span></p><p><b>performer</b>: <a href=\"#Performer1\">#Performer1</a></p></blockquote></blockquote><blockquote><p><b>action</b></p><p><b>resource</b>: <a name=\"example01-care03-referralprescription-nursing-medication\"> </a></p><blockquote><p><b>status</b>: active</p><p><b>statusReason</b>: <span title=\"Codes: {https://www.ehealth.fgov.be/standards/fhir/CodeSystem/be-status-reason created}\">Created</span></p><p><b>intent</b>: order</p><p><b>category</b>: <span title=\"Codes: {https://www.ehealth.fgov.be/standards/fhir/CodeSystem/be-nursing-medication-injection SC}\">Subcutaan</span></p><p><b>priority</b>: routine</p><p><b>medication</b>: <span title=\"Codes: {https://cnk.apb.be/codings/cnk_product_codes 2661098}\">Midazolam Mylan inj./inf./instill. oploss. i.m./i.v./rect. [amp.] 10 x 5 mg / 5 ml</span></p><p><b>subject</b>: <a href=\"#Patient1\">#Patient1</a></p><p><b>requester</b>: <a href=\"#Requester1\">#Requester1</a></p><p><b>performer</b>: <a href=\"#Performer1\">#Performer1</a></p><p><b>performerType</b>: <span title=\"Codes: {http://snomed.info/sct 106292003}\">Nurse</span></p></blockquote></blockquote></div>"
  },
  "contained": [
    {
      "resourceType": "Patient",
      "id": "Patient1",
      "meta": {
        "profile": [
          "https://www.ehealth.fgov.be/standards/fhir/StructureDefinition/be-patient"
        ]
      },
      "identifier": [
        {
          "use": "official",
          "system": "https://www.ehealth.fgov.be/standards/fhir/NamingSystem/ssin",
          "value": "9999999999"
        }
      ],
      "name": [
        {
          "family": "Doe",
          "given": [
            "Jane"
          ]
        }
      ],
      "telecom": [
        {
          "system": "phone",
          "value": "322672299",
          "use": "home"
        }
      ],
      "gender": "female",
      "birthDate": "1956-05-27",
      "address": [
        {
          "use": "home",
          "type": "both",
          "text": "Labradorstraat 26, 1000 Brussel",
          "line": [
            "Labradorstraat 26"
          ],
          "city": "Brussel",
          "postalCode": "1000",
          "country": "BE"
        }
      ]
    },
    {
      "resourceType": "Practitioner",
      "id": "Requester1",
      "meta": {
        "profile": [
          "https://www.ehealth.fgov.be/standards/fhir/StructureDefinition/be-practitioner"
        ]
      },
      "identifier": [
        {
          "use": "official",
          "system": "https://www.ehealth.fgov.be/standards/fhir/NamingSystem/nihdi",
          "value": "8888888888"
        }
      ],
      "name": [
        {
          "use": "official",
          "family": "Seven",
          "given": [
            "Henry"
          ]
        }
      ],
      "telecom": [
        {
          "system": "phone",
          "value": "322882299",
          "use": "home"
        }
      ],
      "address": [
        {
          "use": "work",
          "type": "both",
          "text": "Werkstraat 26, 1000 Brussel",
          "line": [
            "Werkstraat 26"
          ],
          "city": "Brussel",
          "postalCode": "1000",
          "country": "BE"
        }
      ]
    },
    {
      "resourceType": "Organization",
      "id": "Performer1",
      "meta": {
        "profile": [
          "https://www.ehealth.fgov.be/standards/fhir/StructureDefinition/be-organization"
        ]
      },
      "identifier": [
        {
          "use": "official",
          "system": "https://www.ehealth.fgov.be/standards/fhir/NamingSystem/nihdi",
          "value": "9876543210"
        }
      ],
      "name": "Labstraatlabo",
      "telecom": [
        {
          "system": "phone",
          "value": "322884499",
          "use": "work"
        }
      ],
      "address": [
        {
          "use": "work",
          "type": "both",
          "text": "Labstraat 101, 1000 Brussel",
          "line": [
            "Labstraat 101"
          ],
          "city": "Brussel",
          "postalCode": "1000",
          "country": "BE"
        }
      ]
    },
    {
      "resourceType": "ServiceRequest",
      "id": "example01-care01-referralprescription-nursing-bladder-care",
      "meta": {
        "profile": [
          "https://www.ehealth.fgov.be/standards/fhir/StructureDefinition/be-referralprescription-nursing",
          "https://www.ehealth.fgov.be/standards/fhir/StructureDefinition/be-referralprescription-nursing-bladder-care"
        ]
      },
      "extension": [
        {
          "url": "http://hl7.org/fhir/StructureDefinition/request-statusReason",
          "valueCodeableConcept": {
            "coding": [
              {
                "system": "https://www.ehealth.fgov.be/standards/fhir/CodeSystem/be-status-reason",
                "code": "created",
                "display": "Created"
              }
            ]
          }
        }
      ],
      "status": "active",
      "intent": "order",
      "category": [
        {
          "coding": [
            {
              "system": "http://snomed.info/sct",
              "code": "9632001"
            }
          ],
          "text": "Nursing procedure"
        }
      ],
      "priority": "routine",
      "code": {
        "coding": [
          {
            "system": "https://www.ehealth.fgov.be/standards/fhir/CodeSystem/be-cs-nursing-code",
            "code": "bladder-care"
          }
        ]
      },
      "orderDetail": [
        {
          "coding": [
            {
              "system": "https://www.ehealth.fgov.be/standards/fhir/CodeSystem/be-cs-type-of-bladder-care",
              "code": "bladder-probe-in-out"
            }
          ]
        }
      ],
      "subject": {
        "reference": "#Patient1"
      },
      "occurrenceTiming": {
        "repeat": {
          "frequency": 1,
          "period": 1,
          "periodUnit": "d"
        }
      },
      "requester": {
        "reference": "#Requester1"
      },
      "performerType": {
        "coding": [
          {
            "system": "http://snomed.info/sct",
            "code": "106292003",
            "display": "Nurse"
          }
        ]
      },
      "performer": [
        {
          "reference": "#Performer1"
        }
      ]
    },
    {
      "resourceType": "ServiceRequest",
      "id": "example01-care02-colon-cleansing",
      "meta": {
        "profile": [
          "https://www.ehealth.fgov.be/standards/fhir/StructureDefinition/be-referralprescription-nursing",
          "https://www.ehealth.fgov.be/standards/fhir/StructureDefinition/be-referralprescription-nursing-digestive-system-care"
        ]
      },
      "extension": [
        {
          "url": "http://hl7.org/fhir/StructureDefinition/request-statusReason",
          "valueCodeableConcept": {
            "coding": [
              {
                "system": "https://www.ehealth.fgov.be/standards/fhir/CodeSystem/be-status-reason",
                "code": "created",
                "display": "Created"
              }
            ]
          }
        }
      ],
      "status": "active",
      "intent": "order",
      "category": [
        {
          "coding": [
            {
              "system": "http://snomed.info/sct",
              "code": "9632001"
            }
          ],
          "text": "Nursing procedure"
        }
      ],
      "priority": "routine",
      "code": {
        "coding": [
          {
            "system": "https://www.ehealth.fgov.be/standards/fhir/CodeSystem/be-cs-nursing-code",
            "code": "digestive-system-care"
          }
        ]
      },
      "orderDetail": [
        {
          "coding": [
            {
              "system": "https://www.ehealth.fgov.be/standards/fhir/CodeSystem/be-cs-digestive-system-care",
              "code": "colonic-cleansing"
            }
          ]
        }
      ],
      "subject": {
        "reference": "#Patient1"
      },
      "occurrenceTiming": {
        "repeat": {
          "frequency": 1,
          "period": 1,
          "periodUnit": "d"
        }
      },
      "requester": {
        "reference": "#Requester1"
      },
      "performerType": {
        "coding": [
          {
            "system": "http://snomed.info/sct",
            "code": "106292003",
            "display": "Nurse"
          }
        ]
      },
      "performer": [
        {
          "reference": "#Performer1"
        }
      ]
    },
    {
      "resourceType": "MedicationRequest",
      "id": "example01-care03-referralprescription-nursing-medication",
      "meta": {
        "profile": [
          "https://www.ehealth.fgov.be/standards/fhir/StructureDefinition/be-referralprescription-nursing-medication"
        ]
      },
      "status": "active",
      "statusReason": {
        "coding": [
          {
            "system": "https://www.ehealth.fgov.be/standards/fhir/CodeSystem/be-status-reason",
            "code": "created",
            "display": "Created"
          }
        ]
      },
      "intent": "order",
      "category": [
        {
          "coding": [
            {
              "system": "https://www.ehealth.fgov.be/standards/fhir/CodeSystem/be-nursing-medication-injection",
              "code": "SC"
            }
          ],
          "text": "Subcutaan"
        }
      ],
      "priority": "routine",
      "medicationCodeableConcept": {
        "coding": [
          {
            "system": "https://cnk.apb.be/codings/cnk_product_codes",
            "code": "2661098",
            "display": "Midazolam Mylan inj./inf./instill. oploss. i.m./i.v./rect. [amp.] 10 x 5 mg / 5 ml"
          }
        ]
      },
      "subject": {
        "reference": "#Patient1"
      },
      "requester": {
        "reference": "#Requester1"
      },
      "performer": {
        "reference": "#Performer1"
      },
      "performerType": {
        "coding": [
          {
            "system": "http://snomed.info/sct",
            "code": "106292003",
            "display": "Nurse"
          }
        ]
      },
      "dosageInstruction": [
        {
          "text": "opzet hier: éénmalige sondage en lavement uitvoeren, maar persoon op voorhand verdoven met 5mg Midzaolan via subcutane inspuiting",
          "timing": {
            "repeat": {
              "frequency": 1,
              "period": 1,
              "periodUnit": "d"
            }
          }
        }
      ]
    }
  ],
  "identifier": [
    {
      "system": "https://www.ehealth.fgov.be/standards/fhir/NamingSystem/uhmep",
      "value": "UHMEPVALUE"
    }
  ],
  "status": "active",
  "intent": "order",
  "subject": {
    "reference": "#Patient1"
  },
  "action": [
    {
      "id": "care01",
      "relatedAction": [
        {
          "actionId": "care03",
          "relationship": "after-end"
        }
      ],
      "resource": {
        "reference": "#example01-care01-referralprescription-nursing-bladder-care"
      }
    },
    {
      "id": "care02",
      "relatedAction": [
        {
          "actionId": "care03",
          "relationship": "after-end"
        }
      ],
      "resource": {
        "reference": "#example01-care02-colon-cleansing"
      }
    },
    {
      "id": "care03",
      "resource": {
        "reference": "#example01-care03-referralprescription-nursing-medication"
      }
    }
  ]
}