<?xml version="1.0" encoding="UTF-8"?>
<ServiceRequest xmlns="http://hl7.org/fhir" xmlns:xsi="http://www.w3.org/2001/XMLSchema-instance" xsi:schemaLocation="http://hl7.org/fhir file:///H:/OLD_DESKTOP/Desktop/LATEST%20AND%20GREATEST/FHIR4/servicerequest.xsd">
	<id value="laboratory-order-example1"/>
	<meta>
		<profile value="https://www.ehealth.fgov.be/standards/fhir/StructureDefinition/be-lab-prescription"/>
	</meta>
	<!-- NOTE the mix of codes etc. in this example serve to illustrate and may not be clinically logical -->
	<!-- In this example some referenced resources are placed here in <contained> tags to be fully 'contained' 
		within the serviceRequest, depending on the final architectural approach 
		- this may have to be revisited -->
	<text>
		<status value="generated"/>
		<div xmlns="http://www.w3.org/1999/xhtml">A human readable form of the request (in HTML) SHALL be
			provided here to enable systems that cannot process all structured
			data, to at least present the information to the interactive user.
			More information on https://www.hl7.org/fhir/R4/narrative.html
		</div>
	</text>
<!-- 
Some reqs explicitely in this example:
- Specific tests ordered
- Possibilty to define the order using text
- Order with/without specimen
- Telephone and adresses of different parties
- Possibility to add extra codes referring to some sort of coded justification
- possibility to mark the tests ordered in different coded structured ways and/or in text
- extra clinical information is provided, such as an Observation resource
- a suspected codition of the patient is given as extra clinical information
- how to model an initial prescription by an administrative assistent.

-->
	<contained>
		<Patient xmlns="http://hl7.org/fhir">
			<id value="Patient1"/>
			<meta>
				<profile value="https://www.ehealth.fgov.be/standards/fhir/StructureDefinition/be-patient"/>
			</meta>
			<identifier>
				<use value="official"/>
				<system value="https://www.ehealth.fgov.be/standards/fhir/NamingSystem/ssin"/>
				<value value="9999999999"/>
			</identifier>
			<name>
				<family value="Doe"/>
				<given value="Jane"/>
			</name>
			<telecom>
				<system value="phone"/>
				<value value="322672299"/>
				<use value="home"/>
			</telecom>
			<gender value="female"/>
			<birthDate value="1956-05-27"/>
			<address>
				<use value="home"/>
				<type value="both"/>
				<text value="Labradorstraat 26, 1000 Brussel"/>
				<line value="Labradorstraat 26"/>
				<city value="Brussel"/>
				<postalCode value="1000"/>
				<country value="BE"/>
			</address>
		</Patient>
	</contained>
	<contained>
		<Observation xmlns="http://hl7.org/fhir">
			<id value="observation1"/>
			<status value="final"/>
			<category>
				<coding>
					<system value="http://terminology.hl7.org/CodeSystem/observation-category"/>
					<code value="vital-signs"/>
					<display value="Vital Signs"/>
				</coding>
				<text value="Vital Signs"/>
			</category>
			<code>
				<coding>
					<system value="http://loinc.org"/>
					<code value="8867-4"/>
					<display value="Heart rate"/>
				</coding>
				<coding>
					<system value="http://snomed.info/sct"/>
					<code value="364075005"/>
					<display value="Heart rate (observable entity)"/>
				</coding>
				<text value="Heart rate"/>
			</code>
			<subject>
				<reference value="#Patient1"/>
			</subject>
			<effectiveDateTime value="1999-07-02"/>
			<performer>
				<reference value="#Requester1"/>
			</performer>
			<valueQuantity>
				<value value="51"/>
				<unit value="beats/minute"/>
				<system value="http://unitsofmeasure.org"/>
				<code value="/min"/>
			</valueQuantity>
		</Observation>
	</contained>
	<contained>
		<Condition>
			<!-- a suspected codition of the patient is given as extra clinical information -->
			<id value="condition1"/>
			<clinicalStatus>
				<coding>
					<system value="http://terminology.hl7.org/CodeSystem/condition-clinical"/>
					<code value="active"/>
				</coding>
			</clinicalStatus>
			<verificationStatus>
				<coding>
					<system value="http://terminology.hl7.org/CodeSystem/condition-ver-status">
					</system>
					<code value="provisional">
					</code>
				</coding>
			</verificationStatus>
			<code>
				<text value="bradycardie"/>
			</code>
			<subject>
				<reference value="#Patient1"/>
			</subject>
			<note>
				<text value="This is a suspicion"/>
			</note>
		</Condition>
	</contained>
	<contained>
		<DocumentReference>
			<id value="media1"/>
			<!--  This just to illustrate how lo leverage the DocumentReference resource to link to a supporting image  -->
			<status value="current"/>
			<!--Many elements are available within the Media resource to further define, in this example, minimal use is made of the Media resource to only highlight the bare essentials -->
			<content>
				<attachment>
					<contentType value="image/gif"/>
	<!--Many elements are available within the attachment resource to further define, in this example, minimal use is made to only highlight the bare essentials -->
		<data value="iVBORw0KGgoAAAANSUhEUgAAA+MAAACnCAYAAAB6pY03AAAAAXNSR0IArs4c6QAAAARnQU1BAACx
jwv8YQUAAAAJcEhZcwAAEnMAABJzAYwiuQcAADBZSURBVHhe7d09rty218fxrOFfZj/ZQHZgwEiZ
gg=="/> <!-- [...] -->
				</attachment>
			</content>
		</DocumentReference>
	</contained>
	<contained>
		<Practitioner xmlns="http://hl7.org/fhir">
			<id value="Requester1"/>
			<meta>
				<profile value="https://www.ehealth.fgov.be/standards/fhir/StructureDefinition/be-practitioner"/>
			</meta>
			<identifier>
				<use value="official"/>
				<system value="https://www.ehealth.fgov.be/standards/fhir/NamingSystem/nihdi"/>
				<value value="8888888888"/>
			</identifier>
			<name>
				<use value="official"/>
				<family value="Seven"/>
				<given value="Henry"/>
			</name>
			<telecom>
				<system value="phone"/>
				<value value="322882299"/>
				<use value="home"/>
			</telecom>
			<address>
				<use value="work"/>
				<type value="both"/>
				<text value="Werkstraat 26, 1000 Brussel"/>
				<line value="Werkstraat 26"/>
				<city value="Brussel"/>
				<postalCode value="1000"/>
				<country value="BE"/>
			</address>
		</Practitioner>
	</contained>
	<contained>
		<Organization xmlns="http://hl7.org/fhir">
			<id value="Performer1"/>
			<meta>
				<profile value="https://www.ehealth.fgov.be/standards/fhir/StructureDefinition/be-organization"/>
			</meta>
			<identifier>
				<use value="official"/>
				<system value="https://www.ehealth.fgov.be/standards/fhir/NamingSystem/nihdi"/>
				<value value="9876543210"/>
			</identifier>
			<name value="Labstraatlabo">
			</name>
			<telecom>
				<system value="phone"/>
				<value value="322884499"/>
				<use value="work"/>
			</telecom>
			<address>
				<use value="work"/>
				<type value="both"/>
				<text value="Labstraat 101, 1000 Brussel"/>
				<line value="Labstraat 101"/>
				<city value="Brussel"/>
				<postalCode value="1000"/>
				<country value="BE"/>
			</address>
		</Organization>
	</contained>
	<contained>
  <Specimen>
        <id value="specimen1"/>
        <identifier>
        <!--  Business identifier 0..* of the specimen SHOULD BE included if available  -->
          <system value="https://www.GTL-LABO.be/"/>
          <value value="1"/>
        </identifier>
        <type>
          <coding>
          <!--   RECOMMENDED to include The actual specimen, described using a coding system. Here, the coding system SNOMED-CT is used for this which is RECOMMENDED for specimen. As a general back-up rule, whenever the laboratory does use a propriety code, a .text element SHALL always be included explaining the code.   -->
            <system value="http://snomed.info/sct"/>
            <code value="119297000"/>
            <display value="Blood specimen"/>
          </coding>
          <text value="A string can be added to nuance or explain."/>
        </type>
        <collection>
        <!--   The date/time when the specimen was collected SHOULD be included if available   -->
          <collectedDateTime value="2015-11-03"/>
          <method>
          <!--  OPTIONAL provide the method of collection   -->
            <coding>
              <system value="http://snomed.info/sct"/>
              <code value="28520004"/>
              <display value="Venipuncture for blood test (procedure)"/>
            </coding>
          </method>
          <bodySite>
          <!--  OPTIONAL provide the bodySite. Here, a SNOMED-CT code is used. Alternatively, express this using the .text element of the CodeableConcept datatype.  -->
            <coding>
              <system value="http://snomed.info/sct"/>
              <code value="368208006"/>
              <display value="Left upper arm structure (body structure)"/>
            </coding>
          </bodySite>
        </collection>
        <note>
        <!--  OPTIONAL  the .processing element can be added here. Again, this is also a powerful element to express details if needed. (refer to the profile for the many possibilities that can be leveraged here)  -->
        <!--   OPTIONAL, any note concerning the specimen. Using the Annotation datatype in FHIR, it is OPTIONAL here to also add an author and/or dateTime of this annotation   -->
          <text value="Some extra relevant information concerning the specimen"/>
        </note>
      </Specimen>
	</contained>
	<extension url="http://hl7.org/fhir/StructureDefinition/request-statusReason">
		<valueCodeableConcept>
			<coding>
				<system value="https://www.ehealth.fgov.be/standards/fhir/CodeSystem/be-status-reason"/>
				<code value="created"/>
				<display value="Created"/>
			</coding>
		</valueCodeableConcept>
	</extension>
	<identifier>
		<system value="https://www.ehealth.fgov.be/standards/fhir/NamingSystem/uhmep"/>
		<value value="XXXXXX"/>
	</identifier>
	<!--basedOn element might be here to reference another request -->
	<!--replaces element might be here to reference the request being replaced -->
	<status value="active"/>
	<!--This could also be e.g. 'draft' or 'on-hold' if the order e.g. is made by a secretary and still needs approval-->
	<intent value="original-order"/>
	<!--This could also be e.g. 'reflex-order' (cfr. specifications) -->
	<category>
		<coding>
			<system value="http://snomed.info/sct"/>
			<code value="15220000"/>
			<display value="Laboratory test"/>
		</coding>
	</category>
	<priority value="stat"/>
	<!--priority according to specifications -->
	<code>
		<coding>
			<!-- high level: 1 code. Cfr. profile for rules on what codes to use here (preferably LOINC etc.) -->
			<system value="http://loinc.org"/>
			<code value="18723-7"/>
			<display value="Hematology studies (set)"/>
		</coding>
		<!-- the FHIR datatype that is used here allows for only textual expressions.If considered exhaustive enough - an order might only contain: e.g.
<code>
<text value="Diabetes?"/>
</code>
-->
	</code>
	<orderDetail>
		<!-- If needed to specify: multiple codes. Cfr. profile for rules on what codes to use here (preferably LOINC etc.) -->
		<coding>
			<system value="http://loinc.org"/>
			<code value="30341-2"/>
			<display value="Erythrocyte sedimentation rate"/>
		</coding>
	</orderDetail>
	<orderDetail>
		<coding>
			<system value="http://loinc.org"/>
			<code value="789-8"/>
			<display value="Erythrocytes [#/volume] in Blood by Automated count"/>
		</coding>
	</orderDetail>
	<orderDetail>
		<coding>
			<system value="http://loinc.org"/>
			<code value="20563-3"/>
			<display value="Carboxyhemoglobin/Hemoglobin.total in Blood"/>
		</coding>
	</orderDetail>
	<orderDetail>
		<text value="Test described in text only"/>
	</orderDetail>
	<subject>
		<reference value="#Patient1"/>
	</subject>
	<authoredOn value="2015-11-01T14:41:00+01:00"/>
	<requester>
		<reference value="#Requester1"/>
	</requester>
	<!-- if simply needed to mark the prescription as an internal draft that is made by administrative personel, the requester might alternatively be modeled simply like this:
<requester>
<display value="Jan Van Den Admin-assistent"/>	
	</requester> -->
	<performerType>
		<coding>
			<system value="http://snomed.info/sct"/>
			<code value="61246008"/>
			<!-- here the high level SNOMED-CT code is given for laboratory performer - could also be a specialized child of this SNOMED-CT code -->
			<display value="Laboratory medicine specialist"/>
		</coding>
	</performerType>
	<performer>
		<!--This could be a practitioner, but in this case, it is a laboratory. Naturally, this might be not known and the entire element will not exist.-->
		<reference value="#Performer1"/>
	</performer>
	<reasonCode>
		<coding>
			<system value="https://www.SOME_NOMENCLATURE_SYSTEM.be/"/>
			<code value="123"/>
			<display value="TheJustification"/>
			<!-- Using a code, it should be possible to also send a justification (e.g. a toxoplasmosis test during pregnancy) (this is a limited list of nomenclature codes) -->
		</coding>
	</reasonCode>
	<supportingInfo>
		<reference value="#observation1"/>
	</supportingInfo>
	<supportingInfo>
		<reference value="#condition1"/>
	</supportingInfo>
	<supportingInfo>
		<reference value="#media1"/>
	</supportingInfo>
	<specimen>
	<reference value="#specimen1"/>
	</specimen>
	<note>
		<text value="Some free text explaining about these tests that are ordered."/>
	</note>
</ServiceRequest>
